File: G_Tensile_Test/data.csv
extension(mm),force(N)
0,0
0.00148201,182.0723
0.002578735,370.9473
0.00390625,536.3303
0.003736496,680.3353
0.004274368,804.0903
0.004306793,907.4843
0.004739761,994.1893
0.004232407,1066.18
0.004369736,1142.04
0.004638672,1220.51
0.004331589,1298.94
0.00526619,1374.69
0.004648209,1451.48
0.005044937,1525.18
0.005447388,1594.56
0.005002975,1665.77
0.005109787,1733.34
0.005954742,1803.13
0.006063461,1871.19
0.006505966,1940.04
0.005794525,2009.28
0.00699234,2079.92
0.007661819,2148.91
0.007320404,2219.68
0.007055283,2291.23
0.009569168,2363.95
0.008058548,2436.34
0.008127213,2509.02
0.009046555,2582.93
0.008964539,2657.94
0.009918213,2731.55
0.01028061,2806.41
0.009801865,2882.58
0.01009941,2961.06
0.01004219,3038.34
0.009735107,3116.96
0.01022148,3196.24
0.01049805,3275.7
0.01135826,3357.24
0.009597778,3437.92
0.01153755,3519.82
0.01077652,3603.54
0.01127243,3686.87
0.01069832,3769.72
0.01102066,3855.04
0.01097298,3940.55
0.01155472,4027.1
0.01122856,4112.9
0.01222801,4200.44
0.01328278,4287.16
0.0125885,4375.7
0.01316261,4463.99
0.01315308,4554.72
0.01241684,4647.03
0.01488113,4739.08
0.01358032,4830.36
0.01483536,4922.1
0.01276588,5012.34
0.0119381,5105
0.01204681,5197.37
0.01142502,5292.26
0.01110077,5386.18
0.01137924,5480.37
0.01095772,5576.85
0.01160431,5671.07
0.01008987,5767.74
0.01019478,5862.89
0.009651184,5959.61
0.008741379,6055.72
0.00894928,6153.39
0.007568359,6250.22
0.008178711,6349.66
0.008319855,6447.17
0.007225037,6547.63
0.007133484,6646.54
0.007211685,6747.72
0.008012772,6845.54
0.008499146,6949.01
0.008172989,7047.99
0.00879097,7151.86
0.008687973,7253.06
0.007795334,7356.96
0.008630753,7461.1
0.008441925,7564.54
0.00859642,7670.15
0.008239746,7775.04
0.007919312,7880.46
0.00901413,7985.58
0.00831604,8092.37
0.007629395,8197.45
0.008295059,8305.07
0.008106232,8411.69
0.00809288,8520.41
0.008684158,8626.59
0.008836746,8735.94
0.008592606,8843.64
0.009103775,8954.49
0.009227753,9064.5
0.0106678,9174.9
0.01037598,9285.11
0.01034927,9397.52
0.009820938,9508.22
0.01005745,9620.95
0.01097107,9732.47
0.01174736,9846.05
0.01133537,9957.99
0.01205063,10070.8
0.01191521,10183.4
0.01237488,10297.9
0.01350975,10412.6
0.01392937,10526.3
0.01351547,10641.9
0.0141983,10755.1
0.01488113,10871.6
0.0141468,10987.5
0.01536369,11103
0.01565933,11219.1
0.01522064,11337
0.01523209,11453
0.01493645,11570.4
0.01505661,11688.1
0.01516914,11805.7
0.01516914,11922.6
0.01618385,12042.6
0.016325,12160.7
0.01627922,12279.7
0.01703835,12399
0.01732063,12515.6
0.0177803,12634.6
0.01814079,12754.8
0.01822662,12874.7
0.01890373,12995.6
0.01894188,13116.7
0.01838112,13237
0.01942825,13358
0.01919556,13479.3
0.02055359,13602.1
0.02067947,13722.9
0.02020645,13844.4
0.02121162,13964.8
0.02101517,14089.5
0.02111626,14212.1
0.02135658,14336.2
0.02280998,14460.2
0.02294922,14583.9
0.02282524,14707.5
0.02272034,14833.9
0.02274895,14957.2
0.02402306,15082.1
0.02339172,15206.1
0.02429199,15333.2
0.02472115,15457.4
0.02481079,15583.4
0.02505493,15709.7
0.02573967,15836.6
0.025177,15961.6
0.026474,16089
0.02659035,16217.4
0.02643776,16344.6
0.02742577,16473.6
0.02798653,16601.8
0.02873039,16729.9
0.0291214,16859
0.02994156,16987.2
0.03009224,17115.4
0.03052139,17245.7
0.03124809,17372.7
0.03195,17503
0.03255463,17632
0.03253937,17761.1
0.03326988,17890.4
0.03336525,18021
0.03386879,18151.5
0.03416061,18284.3
0.03392601,18415.1
0.03526497,18546.6
0.03555489,18677.1
0.03536415,18810
0.03588867,18940.1
0.03663826,19073.8
0.03681374,19204.1
0.03755379,19335.7
0.03739929,19426
0.03677559,16984.6
0.03779411,16830.4
0.04042053,16850.6
0.04463768,16798.3
0.04734612,16749.3
0.05206871,16725.1
0.05945969,16705.4
0.06821823,16673.9
0.07769585,16630.3
0.08657455,16639.3
0.09600639,16657.2
0.1067944,16623
0.1172028,16619.8
0.1258965,16637.4
0.1362705,16705.5
0.1450691,16735.7
0.1560345,16701.9
0.1672268,16700.1
0.1757679,16717
0.1871185,16717.4
0.1983395,16663.6
0.2074928,16645
0.2193489,16587.9
0.2275581,16598.4
0.2374134,16564.4
0.2474117,16514.6
0.2571659,16447
0.2678356,16402.8
0.2781734,16402.9
0.2871399,16380.9
0.2988281,16372.5
0.3084278,16406.1
0.3179569,16459.3
0.328064,16448.3
0.3392487,16402
0.3508511,16389.3
0.3595905,16434.3
0.3706512,16406.8
0.3808193,16398.8
0.3925362,16290
0.4027214,16275.7
0.4128208,16293.3
0.4230919,16259.8
0.4316864,16244.1
0.4421825,16238.6
0.4496632,16220.7
0.4587708,16142.8
0.465929,16110.7
0.4717026,16109.3
0.4775906,16132.2
0.4818592,16178.2
0.487175,16238
0.4901371,16327.8
0.4941063,16436.4
0.4995956,16476.4
0.5045738,16586.7
0.5088062,16696.5
0.513895,16801.3
0.518055,16902.5
0.5245399,16999.7
0.5296803,17087.2
0.5356216,17168.9
0.5413017,17236.8
0.5479469,17305.2
0.5531902,17371.1
0.5599461,17435.9
0.5673466,17495.1
0.5744228,17546.8
0.5801582,17604.6
0.5873966,17662.1
0.5932446,17714
0.6010742,17767.9
0.6074982,17817.6
0.6143017,17871.6
0.6203671,17925.1
0.6265507,17975.7
0.6321964,18026.4
0.6382732,18075.8
0.6446857,18125.2
0.6519089,18175.4
0.6585217,18224.1
0.6649055,18271.5
0.6716385,18319.3
0.6771584,18365.2
0.6827278,18410.5
0.6882687,18457.5
0.6942215,18504.3
0.7011948,18547.6
0.7088165,18592.3
0.7160645,18636.1
0.7216511,18679.7
0.7277241,18721.4
0.7352333,18762.6
0.7412434,18803.1
0.7471561,18845.7
0.7535648,18884.4
0.7598419,18924.4
0.7660561,18963.3
0.7721252,19001.3
0.777668,19038.9
0.7828712,19076.5
0.7896271,19113.5
0.7953358,19149.2
0.8010578,19185.4
0.8079147,19221.2
0.8130894,19256.3
0.8191986,19290.4
0.8254128,19326.4
0.8315849,19359.3
0.8375206,19393.4
0.8427124,19425.8
0.8480129,19459.9
0.8541546,19491.2
0.8595562,19524
0.8658714,19556.1
0.8709087,19588.6
0.8765125,19618.9
0.8828697,19651.7
0.8875275,19682.5
0.8936005,19713.1
0.9002552,19744.2
0.9049206,19774.2
0.9111023,19805.3
0.9152966,19834.9
0.9215565,19865.2
0.9284515,19895.5
0.9328842,19924.5
0.9378605,19955.2
0.9432106,19984.6
0.9491825,20013.7
0.9549732,20042.9
0.9610367,20070.5
0.9657021,20100.6
0.9715118,20129.5
0.9780807,20158.3
0.9837818,20187.3
0.9879684,20217.1
0.9941082,20243.7
0.999464,20273.3
1.005133,20300.4
1.009979,20329.3
1.016348,20356.8
1.021322,20385.3
1.02631,20412.3
1.03245,20441
1.038717,20466.3
1.043522,20494.4
1.050261,20521
1.055372,20548.8
1.061453,20575.9
1.065971,20604.3
1.071878,20630.8
1.077583,20657.8
1.082706,20685.5
1.088673,20712.6
1.095451,20737.4
1.101362,20764.1
1.106562,20791.2
1.11253,20817.1
1.117668,20843.3
1.123638,20868.6
1.12899,20895.1
1.134548,20919.9
1.140238,20947.1
1.145945,20971.4
1.152384,20997.5
1.158386,21020.9
1.164228,21047.7
1.169394,21071.9
1.175846,21096.6
1.183147,21121.5
1.189255,21145.5
1.195265,21170.6
1.199965,21194.9
1.206238,21219.5
1.212301,21244.1
1.218168,21269.7
1.222578,21291.7
1.227776,21317.3
1.23332,21340.3
1.238701,21364.1
1.24436,21387.6
1.251328,21412.4
1.257685,21434.6
1.26384,21458.8
1.270098,21481.6
1.276379,21505.3
1.281479,21528.6
1.287369,21551
1.292597,21573.3
1.299067,21597.7
1.305557,21619
1.311682,21641.8
1.318254,21664.2
1.323528,21687
1.329504,21709
1.335398,21730.7
1.340395,21752
1.347548,21774.7
1.353363,21796.7
1.359749,21818.9
1.366076,21840.3
1.371826,21862.2
1.377806,21884.2
1.384115,21905
1.389929,21926.5
1.396103,21947
1.401993,21970.3
1.407263,21989
1.413742,22011.8
1.41943,22031.6
1.425379,22052.8
1.430861,22072.6
1.439184,22094.9
1.446194,22113.3
1.453283,22134.2
1.456875,22153.8
1.461958,22175.4
1.469286,22193.3
1.475462,22214.4
1.482082,22233.8
1.487566,22253.2
1.49478,22272.4
1.500244,22292.9
1.507118,22312.2
1.513397,22331.7
1.519247,22352.2
1.525797,22368.9
1.532263,22389.2
1.53978,22406
1.545893,22426
1.551592,22444.4
1.557274,22465.1
1.563574,22483.2
1.57037,22502.5
1.576164,22520.6
1.583038,22540.8
1.589075,22557.6
1.595881,22577.2
1.6021,22594.2
1.608646,22614.1
1.614874,22630.7
1.62109,22649.1
1.626795,22666.4
1.633419,22684.9
1.639761,22702.6
1.644836,22719.9
1.652792,22737.9
1.658112,22755.1
1.666269,22772.9
1.671892,22790.2
1.679098,22807.2
1.684938,22824.7
1.692432,22842.2
1.698986,22859.3
1.704805,22876.5
1.711433,22891.6
1.717308,22909.8
1.723747,22925.9
1.730234,22942.3
1.736822,22958.6
1.743431,22976.8
1.749844,22991.8
1.755278,23008.4
1.762291,23024.6
1.768696,23041.4
1.774195,23055.8
1.781313,23072.7
1.788755,23088.1
1.79464,23104.4
1.802088,23118.8
1.80982,23134.6
1.815363,23150.8
1.821985,23166.9
1.829649,23182.6
1.836021,23199.6
1.842396,23214.2
1.848715,23229
1.855143,23245.2
1.861589,23260.2
1.867983,23275.3
1.874214,23289.1
1.881632,23304.3
1.887621,23319.9
1.893604,23334.6
1.900148,23348.6
1.906349,23364.9
1.913162,23378.4
1.918877,23393.8
1.925873,23407
1.931936,23422.7
1.938168,23435.2
1.944977,23450.1
1.951416,23461.3
1.959116,23472.2
1.966154,23486.8
1.972359,23503.1
1.978518,23518.2
1.985744,23532.7
1.99262,23545.7
1.999142,23558.6
2.004904,23572.7
2.011475,23586
2.018404,23600.7
2.024817,23613.9
2.030973,23627.6
2.037249,23640.9
2.044216,23653.8
2.050173,23667.2
2.056273,23680.7
2.063492,23692.4
2.07089,23707.1
2.076691,23719.4
2.084425,23732.6
2.091246,23744.3
2.097971,23759.2
2.104965,23769.3
2.111641,23782.9
2.118832,23794.2
2.12501,23807.6
2.131998,23819.3
2.138475,23831.7
2.145161,23844.2
2.152138,23856.3
2.15888,23869
2.165552,23880
2.17289,23892.3
2.178919,23906.5
2.186663,23918.2
2.192841,23929.1
2.199562,23940.5
2.206629,23951.9
2.213831,23966.3
2.220581,23976.4
2.227306,23988.3
2.234098,23998.9
2.241863,24011.4
2.247381,24023
2.254629,24034.3
2.261234,24044.6
2.26832,24056.8
2.274624,24067.9
2.28186,24080.1
2.288296,24090
2.295275,24100.7
2.301508,24111.6
2.309328,24123
2.315374,24133.8
2.323175,24145
2.329891,24155.3
2.336727,24166.5
2.343658,24177.7
2.350946,24189
2.357098,24199
2.363111,24209.5
2.370258,24220
2.377958,24231
2.384119,24241.4
2.391005,24251.5
2.399416,24262
2.406363,24272
2.413586,24282.8
2.420534,24292.1
2.426764,24302.5
2.433517,24312
2.440063,24322.4
2.445929,24331.3
2.45298,24342.8
2.460384,24351.7
2.467953,24361.5
2.474968,24370.2
2.482347,24381.9
2.489634,24390.3
2.495661,24399.7
2.501146,24409.8
2.508364,24419.7
2.515217,24428.7
2.522736,24437.3
2.529678,24447.1
2.536953,24456
2.54496,24466.1
2.551472,24474.1
2.560345,24484.6
2.566212,24492.9
2.573586,24502.1
2.580879,24510.7
2.586033,24521.5
2.592876,24529.1
2.599342,24539.3
2.606236,24547.3
2.613811,24557.3
2.62109,24564.7
2.628422,24574.2
2.634243,24582.2
2.642452,24590.4
2.649216,24599.4
2.657009,24609.5
2.663643,24615.4
2.671696,24623.9
2.678375,24634.2
2.685272,24642.2
2.692074,24650.5
2.698933,24657.8
2.705482,24666.9
2.713303,24675
2.720589,24683.8
2.729404,24690.7
2.735535,24700.6
2.743565,24706.6
2.750633,24715.6
2.757843,24722.8
2.765533,24732.4
2.771702,24739.2
2.779079,24748.1
2.786366,24754.1
2.794094,24763.2
2.800682,24769.4
2.807919,24777.6
2.816231,24784.2
2.82198,24792.9
2.829281,24799.6
2.836426,24807.1
2.843792,24814.3
2.850716,24823
2.857586,24830.2
2.865372,24837.5
2.871502,24844.2
2.879349,24852.1
2.887253,24859.7
2.894749,24867.1
2.90234,24873.9
2.908539,24881.2
2.915867,24888.5
2.923077,24895.1
2.929058,24903.1
2.937366,24909.1
2.944241,24917.5
2.951321,24922.8
2.95808,24930.1
2.965466,24938.2
2.973667,24944.8
2.98061,24950.7
2.987984,24958.9
2.995419,24963.8
3.003456,24971.4
3.009789,24977.2
3.016659,24984.4
3.02335,24990.3
3.030243,24997.3
3.037926,25004
3.04586,25011.6
3.053951,25018.3
3.061062,25023.6
3.06842,25031.2
3.075176,25035.9
3.083263,25042.6
3.090652,25049.3
3.097599,25055.3
3.105858,25061.1
3.113605,25068
3.120415,25072.9
3.12804,25080.8
3.135113,25085
3.14291,25093.3
3.149662,25097.3
3.157375,25104.5
3.163792,25109.5
3.171844,25114.9
3.180195,25121.1
3.187859,25127.9
3.193367,25132.4
3.201725,25139.6
3.20755,25144.1
3.215092,25150.1
3.223057,25157.2
3.231556,25161.9
3.23896,25167.7
3.246559,25173.8
3.254128,25179.7
3.262146,25185.4
3.269855,25190.9
3.277184,25195.7
3.285572,25201.6
3.291504,25205.4
3.300468,25213
3.306587,25217.9
3.315197,25224.6
3.322418,25228.3
3.328598,25234.7
3.335899,25238.7
3.34388,25244.6
3.351482,25242.6
3.35907,25250
3.36512,25256.6
3.372536,25262.7
3.381306,25268.4
3.38969,25273.9
3.396286,25278.2
3.404327,25283.5
3.411335,25289.1
3.419464,25294.7
3.42746,25299.3
3.434601,25304.3
3.442158,25309.5
3.449871,25313.4
3.456154,25319.3
3.464344,25323.6
3.471878,25329.2
3.478779,25332.3
3.485699,25338.1
3.493534,25341.6
3.50132,25347.4
3.509315,25350.3
3.516113,25355.7
3.523975,25360.3
3.531582,25365.9
3.538479,25368.7
3.546021,25373.7
3.554691,25378.1
3.562294,25382.6
3.570393,25386.8
3.577927,25391.8
3.585358,25395.9
3.592869,25400.6
3.5994,25405.1
3.607498,25410.1
3.614361,25414
3.622955,25417.9
3.630634,25423.1
3.638092,25427.2
3.645176,25432
3.652489,25435.9
3.660469,25439.5
3.668255,25442.3
3.676414,25447.5
3.683392,25451.2
3.691914,25455.6
3.699371,25459.7
3.707169,25463.2
3.71479,25466.2
3.722,25472.6
3.730492,25475.8
3.737274,25479.3
3.746082,25483
3.752815,25488.8
3.761169,25491.1
3.768291,25494.7
3.776676,25498.2
3.783566,25502.5
3.791298,25506.4
3.798588,25509.7
3.80592,25513.5
3.814537,25517.3
3.822586,25519.9
3.83009,25525.9
3.836567,25528
3.84552,25532.1
3.853249,25535.9
3.861256,25539.4
3.868023,25542.1
3.875927,25545.5
3.88409,25549.8
3.891972,25552.2
3.900383,25557.3
3.908829,25558.4
3.9165,25563.4
3.922527,25565.4
3.930523,25570.5
3.938633,25572.3
3.946617,25575.5
3.953419,25578.1
3.961819,25582.1
3.970428,25584.6
3.977146,25588.6
3.985886,25592.1
3.992645,25595.7
4.00045,25600.4
4.008739,25602.3
4.015858,25605.3
4.024254,25609.1
4.031284,25612
4.03899,25614.9
4.046917,25618.1
4.054104,25619.7
4.062386,25622.5
4.069763,25626.4
4.077881,25630.3
4.086452,25632.5
4.094494,25636.5
4.10218,25639.2
4.1092,25642.9
4.117149,25643.6
4.125263,25646.8
4.133568,25649.2
4.140327,25654.3
4.148701,25654.6
4.155632,25659.5
4.163479,25660.3
4.171394,25663.7
4.179455,25666.9
4.187386,25669.1
4.194843,25672
4.202599,25673.8
4.209236,25678.2
4.211678,25680.5
4.224888,25682.6
4.233646,25684.9
4.24136,25689.2
4.248829,25690.4
4.257622,25693.7
4.26516,25696
4.272526,25698.9
4.281181,25700.8
4.289623,25703.5
4.296864,25705.2
4.304905,25709.1
4.31324,25710
4.320847,25713.6
4.327404,25714.2
4.33604,25718.1
4.344482,25717.5
4.351856,25722.1
4.359428,25724.6
4.367458,25726.7
4.374931,25728.1
4.383579,25731.1
4.392242,25733.4
4.400322,25735.1
4.408638,25738.6
4.415943,25740.9
4.424122,25743.2
4.43203,25743.8
4.439518,25746.5
4.448586,25748.8
4.455734,25751.2
4.46373,25753.3
4.471207,25755.9
4.479378,25757.8
4.487473,25760
4.494854,25761.5
4.50214,25764.6
4.511036,25765.7
4.518452,25768.7
4.526211,25769
4.534847,25772.7
4.542381,25773.1
4.550495,25775.5
4.558815,25775.8
4.56789,25778.9
4.575195,25781.3
4.584011,25783.2
4.591846,25785.2
4.600216,25787.2
4.607388,25790.4
4.612221,25790.3
4.622124,25792.6
4.634323,25794.4
4.641537,25797.9
4.649506,25797.6
4.657742,25800
4.665752,25801.4
4.673325,25803.9
4.681652,25804.3
4.689415,25806.2
4.697685,25807
4.706219,25809.8
4.714573,25810.1
4.722504,25812
4.730583,25812.4
4.738464,25815.7
4.746681,25815.8
4.755615,25818.8
4.763546,25819.2
4.771984,25821
4.779346,25822.7
4.788361,25824.9
4.796322,25825.3
4.804829,25826.7
4.812294,25829.4
4.821545,25831.3
4.829338,25832.1
4.837929,25832.8
4.843468,25834.7
4.852901,25834.9
4.860962,25837.5
4.869129,25838.1
4.877548,25841.1
4.884964,25841.2
4.892845,25843
4.901516,25844.1
4.909676,25846.2
4.918716,25846.4
4.92709,25848.5
4.935574,25848.9
4.943756,25851
4.95229,25851.4
4.960037,25851.5
4.967594,25853.7
4.976608,25855.1
4.984299,25856
4.992012,25857.5
5.00042,25858.4
5.008911,25860.2
5.017185,25861.2
5.026207,25861.6
5.034431,25862.1
5.042774,25862.9
5.050804,25865.1
5.058121,25865.1
5.067375,25866.3
5.076138,25866.6
5.084007,25869.6
5.092556,25868.3
5.100517,25869.6
5.108265,25870.7
5.116993,25872
5.125187,25870.4
5.132778,25873
5.141613,25872.2
5.150928,25872.9
5.159966,25873.6
5.168251,25874.9
5.176254,25875.9
5.184021,25876.5
5.192436,25877.1
5.201248,25878.1
5.209595,25879.2
5.21582,25880.2
5.226456,25881.1
5.23436,25881.6
5.242393,25882.2
5.250416,25882.9
5.25946,25883.6
5.266804,25884.3
5.275505,25885.2
5.284107,25885.8
5.292404,25886.4
5.300781,25886.9
5.309959,25887.8
5.318027,25888.3
5.326717,25889.1
5.334709,25889.8
5.343185,25890.3
5.352135,25890.7
5.360126,25891.4
5.368195,25891.9
5.377514,25892.6
5.386723,25893
5.395363,25893.3
5.403126,25893.6
5.411358,25894.3
5.42025,25894.8
5.428413,25895.1
5.437168,25895.5
5.444206,25895.9
5.453472,25896.2
5.460876,25896.4
5.469517,25896.6
5.479023,25897.1
5.487228,25897.7
5.494911,25897.8
5.50351,25898.1
5.511509,25898.5
5.521301,25899.1
5.529976,25899.2
5.539364,25899.5
5.546955,25899.6
5.556465,25899.8
5.565727,25899.8
5.572613,25899.9
5.581562,25899.8
5.590252,25900.3
5.596924,25900.5
5.605877,25900.4
5.614433,25900.3
5.623299,25900.7
5.631172,25901.2
5.639847,25901.2
5.648708,25901.4
5.657124,25901.4
5.665501,25901.6
5.673794,25901.6
5.68364,25901.6
5.692463,25901.6
5.700611,25901.7
5.70919,25901.6
5.718002,25901.6
5.726627,25901.7
5.735313,25901.8
5.742958,25901.7
5.752518,25901.8
5.761948,25901.7
5.769554,25901.8
5.77906,25901.7
5.786892,25901.5
5.795418,25901.2
5.803726,25901
5.812801,25901
5.821823,25901
5.831314,25900.6
5.839767,25900.2
5.848305,25899.9
5.856594,25899.8
5.866028,25899.5
5.875099,25899.3
5.88345,25899.1
5.891327,25898.6
5.899727,25898.3
5.909473,25897.9
5.918056,25897.8
5.927029,25897.3
5.936058,25897.1
5.944397,25896.7
5.949802,25896.5
5.960941,25895.9
5.969658,25895.2
5.979359,25894.5
5.986755,25894.2
5.996475,25893.6
6.005062,25893.1
6.014503,25892.4
6.02401,25891.9
6.032131,25891.2
6.041531,25890.6
6.049973,25890
6.05846,25889.6
6.067009,25889.1
6.075565,25888.5
6.084816,25888
6.092793,25887.3
6.102577,25886.7
6.109375,25885.9
6.119419,25885
6.12986,25884.3
6.136349,25883.8
6.144386,25882.8
6.153278,25881.9
6.162613,25881.2
6.172112,25880.8
6.182274,25879.9
6.190556,25879
6.200504,25878
6.208355,25877.3
6.21796,25876.4
6.226322,25875.4
6.234829,25874.2
6.244308,25873.3
6.253307,25872.4
6.26207,25871.4
6.270916,25870.2
6.280647,25869.2
6.290127,25868.3
6.298878,25867.3
6.307072,25866.2
6.315502,25865.2
6.325806,25864.2
6.334049,25862.9
6.343906,25861.5
6.352333,25860.3
6.360497,25859.3
6.369701,25857.8
6.379307,25856.5
6.386871,25855.1
6.398224,25854
6.406372,25852.5
6.414433,25851.2
6.423965,25849.8
6.431889,25848.5
6.442322,25846.9
6.450397,25845.4
6.459358,25843.8
6.467312,25842.3
6.477753,25840.4
6.486012,25838.7
6.495995,25837.1
6.504627,25835.7
6.513031,25834.4
6.522041,25832.9
6.531685,25831.2
6.541199,25829.4
6.549416,25827.6
6.559029,25825.8
6.567657,25823.9
6.576302,25818.2
6.586121,25816.8
6.595173,25814.2
6.603569,25813.3
6.61285,25809.2
6.622498,25809.2
6.632797,25806.3
6.641811,25804.8
6.650105,25802.2
6.660007,25800.4
6.669399,25797.8
6.67905,25797.2
6.688339,25792.4
6.697933,25791.7
6.707436,25789
6.716908,25787.3
6.725666,25784.2
6.736023,25782.3
6.743393,25779.3
6.752705,25776.5
6.762554,25775.3
6.771286,25771.9
6.78109,25769.6
6.78896,25765.9
6.79966,25764.4
6.808823,25760.8
6.819172,25758.6
6.829323,25755.4
6.83691,25753.3
6.846626,25749.2
6.85677,25746.3
6.865929,25743.4
6.874268,25740.9
6.88398,25737.3
6.894081,25734.8
6.903515,25729.7
6.913971,25728.1
6.923302,25723.4
6.932941,25720.4
6.94051,25717.6
6.950516,25713.1
6.959839,25711.1
6.969501,25707.2
6.978817,25703.6
6.988842,25699.5
6.997341,25697.3
7.007835,25693
7.017193,25689.3
7.026669,25685.5
7.036083,25681.8
7.046333,25676.6
7.055119,25674.6
7.064835,25669.9
7.074306,25665.9
7.083775,25660.9
7.092377,25656.9
7.102463,25653.5
7.110729,25649.7
7.121231,25644.7
7.130039,25640.8
7.13998,25635.2
7.150276,25631.5
7.15995,25625.1
7.169834,25621.9
7.179867,25616.3
7.189606,25612.2
7.19989,25607.1
7.208824,25601.7
7.219063,25597.6
7.228691,25591.7
7.236645,25587
7.247349,25581.6
7.255569,25576.6
7.266815,25571.5
7.274437,25565.9
7.285503,25560
7.294529,25554.4
7.305,25548.7
7.315113,25543.8
7.325218,25537.4
7.334179,25532.2
7.343815,25524.4
7.353519,25519.8
7.363888,25512.9
7.374359,25507.8
7.382774,25500.6
7.39278,25494.9
7.403522,25488.1
7.413357,25482.3
7.423485,25475.5
7.432388,25469.2
7.441437,25462.1
7.452259,25456.6
7.462021,25449
7.47295,25442.8
7.482395,25436.9
7.509415,25429.4
7.519367,25421.4
7.52198,25414.6
7.522602,25408.8
7.531548,25400.3
7.542786,25392.4
7.552364,25384.7
7.562065,25379
7.571693,25369.6
7.582371,25363.6
7.591751,25354.1
7.602024,25347.5
7.611889,25338.1
7.620781,25331.1
7.630871,25322.2
7.640507,25314.3
7.651024,25305.3
7.661198,25298.2
7.669724,25289.1
7.680313,25281.5
7.691185,25271.4
7.700676,25264.4
7.710995,25254.9
7.720463,25246.6
7.730793,25237.8
7.740906,25228.6
7.751087,25219.4
7.761353,25210
7.770107,25201.4
7.780033,25191.1
7.790524,25181.8
7.800514,25171.6
7.811634,25163.2
7.820793,25153.2
7.831242,25143.3
7.841442,25133.6
7.852669,25123.7
7.862442,25113.1
7.872272,25104.5
7.883797,25092.8
7.89127,25082.9
7.902103,25071.9
7.912743,25062.9
7.923122,25050.9
7.933262,25040.7
7.943928,25030.9
7.953785,25019.9
7.964272,25009.1
7.972244,24998.5
7.983982,24987.3
7.995167,24976
8.005592,24965.6
8.016026,24953.6
8.02425,24943.1
8.035248,24930.6
8.046772,24919
8.056328,24908.3
8.066498,24897.8
8.077431,24885.1
8.086597,24873.5
8.096657,24860.5
8.108303,24848.9
8.118004,24836
8.128422,24824.7
8.138439,24810.9
8.149014,24799.4
8.160473,24786.3
8.169708,24774.8
8.179623,24762.7
8.188995,24749.7
8.200623,24736.2
8.210594,24723.1
8.221832,24710.4
8.231022,24697.1
8.242481,24684.3
8.266197,24669.6
8.266197,24657.6
8.273666,24642.9
8.28326,24631.4
8.293869,24616.7
8.30307,24603
8.314487,24588.8
8.323429,24576.3
8.334381,24560.7
8.344704,24546.7
8.355312,24531.4
8.362793,24518.2
8.373756,24502.9
8.38332,24490.2
8.39365,24475
8.402912,24460
8.413067,24444.2
8.424225,24430.6
8.431007,24414.7
8.44302,24399.7
8.453125,24385.4
8.469646,24370
8.479366,24355.5
8.486042,24339.5
8.494556,24323.7
8.505394,24308.8
8.514755,24293.6
8.52594,24277
8.535732,24262
8.546627,24245.7
8.557667,24229.2
8.567974,24212.3
8.577503,24197.2
8.588387,24180.3
8.59853,24163.8
8.609554,24146.2
8.619228,24131.3
8.630383,24112.8
8.641983,24097.7
8.651287,24079.3
8.662716,24063
8.672039,24045.6
8.683525,24028.6
8.693295,24010.9
8.704479,23993.3
8.715237,23975.9
8.725159,23958.2
8.733414,23940.7
8.749207,23922.6
8.761009,23904.8
8.772091,23886.6
8.782902,23868.7
8.793861,23849.3
8.803638,23832
8.814232,23812.8
8.82497,23795
8.835468,23775.8
8.845928,23758
8.855225,23738.2
8.865574,23719.7
8.876564,23698.9
8.887806,23680.7
8.898582,23659.9
8.909512,23641.8
8.920452,23621.1
8.93005,23602.9
8.940807,23581.2
8.950855,23562.6
8.962021,23541.5
8.97134,23523.1
8.983307,23502.2
8.992115,23482.5
9.002769,23462.1
9.01342,23442
9.024857,23420.9
9.034256,23400.2
9.045872,23378.4
9.056507,23357.9
9.06699,23337.5
9.077435,23315.8
9.088287,23294.5
9.098396,23272.2
9.109104,23252.6
9.119324,23229.4
9.129032,23208.7
9.139645,23186.3
9.151012,23164.8
9.162952,23141
9.171921,23120
9.182659,23097.8
9.192852,23076.4
9.203869,23052.2
9.214676,23029.6
9.223927,23007
9.234798,22985.3
9.246216,22961.1
9.257103,22937.8
9.267887,22913.7
9.278919,22891.4
9.289452,22867.7
9.29974,22844.1
9.310154,22820.3
9.320866,22795.8
9.330631,22772.5
9.341637,22748.2
9.352856,22724
9.362495,22697.9
9.373501,22674.1
9.38448,22649.4
9.395691,22624.9
9.40654,22598.5
9.41555,22575.3
9.426445,22548.9
9.438377,22524.3
9.448669,22497.4
9.459641,22473.5
9.469868,22445.7
9.479343,22421.3
9.490532,22394.6
9.501549,22368.9
9.512287,22342.7
9.522583,22316.8
9.533001,22289.3
9.543015,22263.2
9.555298,22237.6
9.565468,22209.6
9.576599,22183.2
9.585941,22154.8
9.59745,22129
9.60833,22099.8
9.618999,22073.6
9.629452,22044.6
9.6399,22017.2
9.650566,21988.3
9.661064,21961
9.672318,21931.7
9.68264,21904
9.693741,21874.2
9.703869,21846.5
9.715321,21817
9.725231,21788.6
9.735199,21758.2
9.747696,21728.7
9.757893,21699.2
9.768509,21670.5
9.778873,21639
9.790371,21609.5
9.801609,21578.3
9.811729,21549.1
9.82198,21518.7
9.83181,21486.2
9.843212,21456.1
9.854107,21425.3
9.864227,21393.5
9.876091,21362.7
9.886486,21330.6
9.89695,21298.5
9.907471,21267
9.919086,21234.6
9.929241,21202.5
9.940197,21168.8
9.952148,21136.9
9.962978,21103.5
9.97298,21071
9.983772,21037.8
9.994488,21004.8
10.00518,20969.9
10.01511,20937.4
10.02679,20903
10.03632,20869.5
10.04614,20834.8
10.05491,20801.3
10.06786,20765.7
10.08154,20731
10.09113,20696.8
10.10403,20659.8
10.1121,20624.6
10.12443,20589.3
10.13492,20554.3
10.14569,20516.4
10.1566,20481.9
10.16714,20443.8
10.17764,20408.5
10.18958,20370.7
10.20066,20333.1
10.2098,20295.6
10.22174,20258.4
10.23195,20219.3
10.24169,20181.8
10.25177,20143.5
10.26365,20105.3
10.27592,20065.2
10.28706,20027
10.29903,19985.9
10.30886,19946.6
10.31997,19906.8
10.3311,19866.7
10.3409,19825.6
10.35277,19784.3
10.36307,19743.3
10.37297,19702.1
10.38538,19659.8
10.3951,19618
10.40689,19575.9
10.41797,19532.3
10.42847,19491.2
10.43967,19447.1
10.45116,19404.5
10.4614,19359.1
10.47244,19314.8
10.48385,19268.9
10.49467,19225.1
10.50459,19177.2
10.51662,19132.8
10.52871,19085.9
10.53896,19040.1
10.5499,18990.1
10.56127,18943.3
10.57134,18893.5
10.58121,18842
10.59409,18779.5
10.6049,18703.8
10.61341,18357.6